File: ev.csv
Voltage,Current,Temperature,Charge Capacity,Internal Resistance,Age in Cycles,State of Charge,Discharge Time,Charge Time,Fault
3.65,5.2,23,85,0.012,1500,55,45,35,0
3.95,5.1,35,75,0.015,800,70,55,45,1
3.7,4.5,27,95,0.01,500,50,65,55,0
3.9,6,29,70,0.018,1400,52,75,65,1
4.1,3.5,33,90,0.014,900,62,85,75,0
3.8,5.1,24,88,0.011,700,60,95,85,0
3.65,4.4,26,84,0.015,100,57,105,95,1
4.05,3.6,37,89,0.014,1100,69,115,65,1
3.85,5.4,31,91,0.017,1500,58,125,75,0
4,5,26,93,0.016,800,65,135,85,1
3.65,5.3,35,90,0.012,1400,52,45,35,0
3.95,5.1,25,65,0.015,700,70,55,45,1
3.7,4.5,34,88,0.01,1000,50,65,55,0
3.9,6,23,74,0.018,1400,52,75,65,1
4.1,3.5,31,90,0.014,300,62,85,75,0
3.8,5.1,28,88,0.011,1200,60,95,85,0
3.65,4.4,27,84,0.015,500,57,105,95,1
4.05,3.6,37,89,0.014,1500,69,115,65,1
3.85,5.4,29,91,0.017,1100,58,125,75,0
4,5,25,93,0.016,200,65,135,85,1
3.65,5.3,30,90,0.012,700,52,45,35,0
3.95,5.1,31,65,0.015,500,70,55,45,1
3.7,4.5,35,88,0.01,200,50,65,55,0
3.9,6,25,74,0.018,800,52,75,65,1
4.1,3.5,32,90,0.014,1300,62,85,75,0
3.8,5.1,26,88,0.011,700,60,95,85,0
3.65,4.4,27,84,0.015,600,57,105,95,1
4.05,3.6,34,89,0.014,200,69,115,65,1
3.85,5.4,28,91,0.017,1400,58,125,75,0
4,5,35,93,0.016,1100,65,135,85,1
3.65,5.3,22,90,0.012,800,52,45,35,0
3.95,5.1,28,65,0.015,600,70,55,45,1
3.7,4.5,26,88,0.01,400,50,65,55,0
3.9,6,21,74,0.018,200,52,75,65,1
4.1,3.5,35,90,0.014,1200,62,85,75,0
3.8,5.1,34,88,0.011,600,60,95,85,0
3.65,4.4,21,84,0.015,400,57,105,95,1
4.05,3.6,34,89,0.014,400,69,115,65,1
3.85,5.4,22,91,0.017,200,58,125,75,0
4,5,27,93,0.016,900,65,135,85,1
3.65,5.3,31,90,0.012,700,52,45,35,0
3.95,5.1,33,65,0.015,500,70,55,45,1
3.7,4.5,27,88,0.01,300,50,65,55,0
3.9,6,28,74,0.018,100,52,75,65,1
4.1,3.5,29,90,0.014,800,62,85,75,0
3.8,5.1,25,88,0.011,600,60,95,85,0
3.65,4.4,28,84,0.015,400,57,105,95,1
4.05,3.6,34,89,0.014,200,69,115,65,1
3.85,5.4,29,91,0.017,1000,58,125,75,0
4,5,20,93,0.016,600,65,135,85,1
3.65,5.3,34,90,0.012,300,52,45,35,0
3.95,5.1,28,65,0.015,100,70,55,45,1
3.7,4.5,26,88,0.01,800,50,65,55,0
3.9,6,25,74,0.018,600,52,75,65,1
4.1,3.5,30,90,0.014,400,62,85,75,0
3.8,5.1,20,88,0.011,200,60,95,85,0
3.65,4.4,27,84,0.015,900,57,105,95,1
4.05,3.6,25,89,0.014,700,69,115,65,1
3.85,5.4,20,91,0.017,500,58,125,75,0
4,5,35,93,0.016,300,65,135,85,1
3.65,5.3,31,90,0.012,100,52,45,35,0
3.95,5.1,33,65,0.015,500,70,55,45,1
3.7,4.5,30,88,0.01,300,50,65,55,0
3.9,6,29,74,0.018,100,52,75,65,1
4.1,3.5,27,90,0.014,800,62,85,75,0
3.8,5.1,34,88,0.011,600,60,95,85,0
3.65,4.4,29,84,0.015,400,57,105,95,1
4.05,3.6,35,89,0.014,200,69,115,65,1
3.85,5.4,31,91,0.017,1000,58,125,75,0
4,5,28,93,0.016,600,65,135,85,1
3.65,5.3,30,90,0.012,300,52,45,35,0
3.95,5.1,21,65,0.015,100,70,55,45,1
3.7,4.5,29,88,0.01,800,50,65,55,0
3.9,6,22,74,0.018,600,52,75,65,1
4.1,3.5,33,90,0.014,400,62,85,75,0
3.8,5.1,29,88,0.011,200,60,95,85,0
3.65,4.4,28,84,0.015,900,57,105,95,1
4.05,3.6,20,89,0.014,700,69,115,65,1
3.85,5.4,35,91,0.017,500,58,125,75,0
4,5,34,93,0.016,300,65,135,85,1
3.65,5.3,33,90,0.012,100,52,45,35,0
3.95,5.1,25,65,0.015,500,70,55,45,1
3.7,4.5,31,88,0.01,300,50,65,55,0
3.9,6,28,74,0.018,100,52,75,65,1
4.1,3.5,33,90,0.014,800,62,85,75,0
3.8,5.1,28,88,0.011,600,60,95,85,0
3.65,4.4,29,84,0.015,400,57,105,95,1
4.05,3.6,27,89,0.014,200,69,115,65,1
3.85,5.4,34,91,0.017,1000,58,125,75,0
4,5,20,93,0.016,600,65,135,85,1
3.65,5.3,27,90,0.012,300,52,45,35,0
3.95,5.1,29,65,0.015,100,70,55,45,1
3.7,4.5,35,88,0.01,800,50,65,55,0
3.9,6,25,74,0.018,600,52,75,65,1
4.1,3.5,30,90,0.014,400,62,85,75,0
3.8,5.1,28,88,0.011,200,60,95,85,0
3.65,4.4,25,84,0.015,900,57,105,95,1
4.05,3.6,20,89,0.014,700,69,115,65,1
3.85,5.4,25,91,0.017,500,58,125,75,0
4,5,34,93,0.016,300,65,135,85,1
3.65,5.3,28,90,0.012,100,52,45,35,0
3.95,5.1,20,65,0.015,500,70,55,45,1
3.7,4.5,34,88,0.01,300,50,65,55,0
3.9,6,21,74,0.018,100,52,75,65,1
4.1,3.5,22,90,0.014,800,62,85,75,0
3.8,5.1,20,88,0.011,600,60,95,85,0
3.65,4.4,21,84,0.015,400,57,105,95,1
4.05,3.6,30,89,0.014,200,69,115,65,1
3.85,5.4,33,91,0.017,1000,58,125,75,0
4,5,21,93,0.016,600,65,135,85,1
3.65,5.3,31,90,0.012,100,52,45,35,0
3.95,5.1,28,65,0.015,500,70,55,45,1
3.7,4.5,35,88,0.01,300,50,65,55,0
3.9,6,25,74,0.018,100,52,75,65,1
4.1,3.5,30,90,0.014,800,62,85,75,0
3.8,5.1,28,88,0.011,600,60,95,85,0
3.65,4.4,25,84,0.015,400,57,105,95,1
4.05,3.6,20,89,0.014,700,69,115,65,1
3.85,5.4,25,91,0.017,500,58,125,75,0
4,5,34,93,0.016,300,65,135,85,1
3.65,5.3,28,90,0.012,100,52,45,35,0
3.95,5.1,20,65,0.015,500,70,55,45,1
3.7,4.5,34,88,0.01,300,50,65,55,0
3.9,6,21,74,0.018,100,52,75,65,1
4.1,3.5,22,90,0.014,800,62,85,75,0
3.8,5.1,20,88,0.011,600,60,95,85,0
3.65,4.4,21,84,0.015,400,57,105,95,1
4.05,3.6,30,89,0.014,200,69,115,65,1
3.85,5.4,33,91,0.017,1000,58,125,75,0
4,5,20,93,0.016,600,65,135,85,1
3.65,5.3,27,90,0.012,300,52,45,35,0
3.95,5.1,29,65,0.015,100,70,55,45,1
3.7,4.5,35,88,0.01,800,50,65,55,0
3.9,6,25,74,0.018,600,52,75,65,1
4.1,3.5,30,90,0.014,400,62,85,75,0
3.8,5.1,28,88,0.011,200,60,95,85,0
3.65,4.4,25,84,0.015,900,57,105,95,1
4.05,3.6,20,89,0.014,700,69,115,65,1
3.85,5.4,33,91,0.017,1000,58,125,75,0
4,5,20,93,0.016,600,65,135,85,1
3.65,5.3,27,90,0.012,300,52,45,35,0
3.95,5.1,29,65,0.015,100,70,55,45,1
3.7,4.5,35,88,0.01,800,50,65,55,0
3.9,6,25,74,0.018,600,52,75,65,1
4.1,3.5,30,90,0.014,400,62,85,75,0
3.8,5.1,28,88,0.011,200,60,95,85,0
3.65,4.4,25,84,0.015,900,57,105,95,1
4.05,3.6,20,89,0.014,700,69,115,65,1
3.85,5.4,33,91,0.017,1000,58,125,75,0
4,5,20,93,0.016,600,65,135,85,1
3.65,5.3,27,90,0.012,300,52,45,35,0
3.95,5.1,29,65,0.015,100,70,55,45,1
3.7,4.5,35,88,0.01,800,50,65,55,0
3.9,6,25,74,0.018,600,52,75,65,1
4.1,3.5,30,90,0.014,400,62,85,75,0
3.8,5.1,28,88,0.011,200,60,95,85,0
3.65,4.4,25,84,0.015,900,57,105,95,1
4.05,3.6,20,89,0.014,700,69,115,65,1
3.85,5.4,33,91,0.017,1000,58,125,75,0
4,5,20,93,0.016,600,65,135,85,1
3.65,5.3,27,90,0.012,300,52,45,35,0
3.95,5.1,29,65,0.015,100,70,55,45,1
3.7,4.5,35,88,0.01,800,50,65,55,0
3.9,6,25,74,0.018,600,52,75,65,1
4.1,3.5,30,90,0.014,400,62,85,75,0
3.8,5.1,28,88,0.011,200,60,95,85,0
3.65,4.4,25,84,0.015,900,57,105,95,1
4.05,3.6,20,89,0.014,700,69,115,65,1
3.85,5.4,33,91,0.017,1000,58,125,75,0
4,5,20,93,0.016,600,65,135,85,1
3.65,5.3,27,90,0.012,300,52,45,35,0
3.95,5.1,29,65,0.015,100,70,55,45,1
3.7,4.5,35,88,0.01,800,50,65,55,0
3.9,6,25,74,0.018,600,52,75,65,1
4.1,3.5,30,90,0.014,400,62,85,75,0
3.8,5.1,28,88,0.011,200,60,95,85,0
3.65,4.4,25,84,0.015,900,57,105,95,1
4.05,3.6,20,89,0.014,700,69,115,65,1
3.85,5.4,33,91,0.017,1000,58,125,75,0
4,5,20,93,0.016,600,65,135,85,1
3.65,5.3,27,90,0.012,300,52,45,35,0
3.95,5.1,29,65,0.015,100,70,55,45,1
3.7,4.5,35,88,0.01,800,50,65,55,0
3.9,6,25,74,0.018,600,52,75,65,1
4.1,3.5,30,90,0.014,400,62,85,75,0
3.8,5.1,28,88,0.011,200,60,95,85,0
3.65,4.4,25,84,0.015,900,57,105,95,1
4.05,3.6,20,89,0.014,700,69,115,65,1
3.85,5.4,33,91,0.017,1000,58,125,75,0
4,5,20,93,0.016,600,65,135,85,1
3.65,5.3,27,90,0.012,300,52,45,35,0
3.95,5.1,29,65,0.015,100,70,55,45,1
3.7,4.5,35,88,0.01,800,50,65,55,0
3.9,6,25,74,0.018,600,52,75,65,1
4.1,3.5,30,90,0.014,400,62,85,75,0
3.8,5.1,28,88,0.011,200,60,95,85,0
3.65,4.4,25,84,0.015,900,57,105,95,1
4.05,3.6,20,89,0.014,700,69,115,65,1
3.85,5.4,33,91,0.017,1000,58,125,75,0
4,5,20,93,0.016,600,65,135,85,1
3.65,5.3,27,90,0.012,300,52,45,35,0
3.95,5.1,29,65,0.015,100,70,55,45,1
3.7,4.5,35,88,0.01,800,50,65,55,0
3.9,6,25,74,0.018,600,52,75,65,1
4.1,3.5,30,90,0.014,400,62,85,75,0
3.8,5.1,28,88,0.011,200,60,95,85,0
3.65,4.4,25,84,0.015,900,57,105,95,1
4.05,3.6,20,89,0.014,700,69,115,65,1
3.85,5.4,33,91,0.017,1000,58,125,75,0
4,5,20,93,0.016,600,65,135,85,1
3.65,5.3,27,90,0.012,300,52,45,35,0
3.95,5.1,29,65,0.015,100,70,55,45,1
3.7,4.5,35,88,0.01,800,50,65,55,0
3.9,6,25,74,0.018,600,52,75,65,1
4.1,3.5,30,90,0.014,400,62,85,75,0
3.8,5.1,28,88,0.011,200,60,95,85,0
3.65,4.4,25,84,0.015,900,57,105,95,1
4.05,3.6,20,89,0.014,700,69,115,65,1
3.85,5.4,33,91,0.017,1000,58,125,75,0
4,5,20,93,0.016,600,65,135,85,1
3.65,5.3,27,90,0.012,300,52,45,35,0
3.95,5.1,29,65,0.015,100,70,55,45,1
3.7,4.5,35,88,0.01,800,50,65,55,0
3.9,6,25,74,0.018,600,52,75,65,1
4.1,3.5,30,90,0.014,400,62,85,75,0
3.8,5.1,28,88,0.011,200,60,95,85,0
3.65,4.4,25,84,0.015,900,57,105,95,1
4.05,3.6,20,89,0.014,700,69,115,65,1
3.85,5.4,33,91,0.017,1000,58,125,75,0
4,5,20,93,0.016,600,65,135,85,1
3.65,5.3,27,90,0.012,300,52,45,35,0
3.95,5.1,29,65,0.015,100,70,55,45,1
3.7,4.5,35,88,0.01,800,50,65,55,0
3.9,6,25,74,0.018,600,52,75,65,1
4.1,3.5,30,90,0.014,400,62,85,75,0
3.8,5.1,28,88,0.011,200,60,95,85,0
3.65,4.4,25,84,0.015,900,57,105,95,1
4.05,3.6,20,89,0.014,700,69,115,65,1
3.85,5.4,33,91,0.017,1000,58,125,75,0
4,5,20,93,0.016,600,65,135,85,1
3.65,5.3,27,90,0.012,300,52,45,35,0
3.95,5.1,29,65,0.015,100,70,55,45,1
3.7,4.5,35,88,0.01,800,50,65,55,0
3.9,6,25,74,0.018,600,52,75,65,1
4.1,3.5,30,90,0.014,400,62,85,75,0
3.8,5.1,28,88,0.011,200,60,95,85,0
3.65,4.4,25,84,0.015,900,57,105,95,1
4.05,3.6,20,89,0.014,700,69,115,65,1
3.85,5.4,33,91,0.017,1000,58,125,75,0
4,5,20,93,0.016,600,65,135,85,1
3.65,5.3,27,90,0.012,300,52,45,35,0
3.95,5.1,29,65,0.015,100,70,55,45,1
3.7,4.5,35,88,0.01,800,50,65,55,0
3.9,6,25,74,0.018,600,52,75,65,1
4.1,3.5,30,90,0.014,400,62,85,75,0
3.8,5.1,28,88,0.011,200,60,95,85,0
4,5,20,93,0.016,600,65,135,85,1
3.65,5.3,27,90,0.012,300,52,45,35,0
3.95,5.1,29,65,0.015,100,70,55,45,1
3.7,4.5,35,88,0.01,800,50,65,55,0
3.9,6,25,74,0.018,600,52,75,65,1
4.1,3.5,30,90,0.014,400,62,85,75,0
3.8,5.1,28,88,0.011,200,60,95,85,0
3.65,4.4,25,84,0.015,900,57,105,95,1
4.05,3.6,20,89,0.014,700,69,115,65,1
3.85,5.4,33,91,0.017,1000,58,125,75,0
4,5,20,93,0.016,600,65,135,85,1
3.65,5.3,27,90,0.012,300,52,45,35,0
3.95,5.1,29,65,0.015,100,70,55,45,1
3.7,4.5,35,88,0.01,800,50,65,55,0
3.9,6,25,74,0.018,600,52,75,65,1
4.1,3.5,30,90,0.014,400,62,85,75,0
3.8,5.1,28,88,0.011,200,60,95,85,0
3.65,4.4,25,84,0.015,900,57,105,95,1
4.05,3.6,20,89,0.014,700,69,115,65,1
3.85,5.4,33,91,0.017,1000,58,125,75,0
4,5,20,93,0.016,600,65,135,85,1
3.65,5.3,27,90,0.012,300,52,45,35,0
3.95,5.1,29,65,0.015,100,70,55,45,1
3.7,4.5,35,88,0.01,800,50,65,55,0
3.9,6,25,74,0.018,600,52,75,65,1
4.1,3.5,30,90,0.014,400,62,85,75,0
3.8,5.1,28,88,0.011,200,60,95,85,0
3.65,4.4,25,84,0.015,900,57,105,95,1
4.05,3.6,20,89,0.014,700,69,115,65,1
3.85,5.4,33,91,0.017,1000,58,125,75,0
4,5,20,93,0.016,600,65,135,85,1
3.65,5.3,27,90,0.012,300,52,45,35,0
3.95,5.1,29,65,0.015,100,70,55,45,1
3.7,4.5,35,88,0.01,800,50,65,55,0
3.9,6,25,74,0.018,600,52,75,65,1
4.1,3.5,30,90,0.014,400,62,85,75,0
3.8,5.1,28,88,0.011,200,60,95,85,0
3.65,4.4,25,84,0.015,900,57,105,95,1
4.05,3.6,20,89,0.014,700,69,115,65,1
3.85,5.4,33,91,0.017,1000,58,125,75,0
4,5,20,93,0.016,600,65,135,85,1
3.65,5.3,27,90,0.012,300,52,45,35,0
3.95,5.1,29,65,0.015,100,70,55,45,1
3.7,4.5,35,88,0.01,800,50,65,55,0
3.9,6,25,74,0.018,600,52,75,65,1
4.1,3.5,30,90,0.014,400,62,85,75,0
3.8,5.1,28,88,0.011,200,60,95,85,0
3.65,4.4,25,84,0.015,900,57,105,95,1
4.05,3.6,20,89,0.014,700,69,115,65,1
3.85,5.4,33,91,0.017,1000,58,125,75,0
4,5,20,93,0.016,600,65,135,85,1
3.65,5.3,27,90,0.012,300,52,45,35,0
3.95,5.1,29,65,0.015,100,70,55,45,1
3.7,4.5,35,88,0.01,800,50,65,55,0
3.9,6,25,74,0.018,600,52,75,65,1
4.1,3.5,30,90,0.014,400,62,85,75,0
3.8,5.1,28,88,0.011,200,60,95,85,0
3.65,4.4,25,84,0.015,900,57,105,95,1
4.05,3.6,20,89,0.014,700,69,115,65,1
3.85,5.4,33,91,0.017,1000,58,125,75,0
4,5,20,93,0.016,600,65,135,85,1
3.65,5.3,27,90,0.012,300,52,45,35,0
3.95,5.1,29,65,0.015,100,70,55,45,1
3.7,4.5,35,88,0.01,800,50,65,55,0
3.9,6,25,74,0.018,600,52,75,65,1
4.1,3.5,30,90,0.014,400,62,85,75,0
3.8,5.1,28,88,0.011,200,60,95,85,0
3.65,4.4,25,84,0.015,900,57,105,95,1
4.05,3.6,20,89,0.014,700,69,115,65,1
3.85,5.4,33,91,0.017,1000,58,125,75,0
4,5,20,93,0.016,600,65,135,85,1
3.65,5.3,27,90,0.012,300,52,45,35,0
3.95,5.1,29,65,0.015,100,70,55,45,1
3.7,4.5,35,88,0.01,800,50,65,55,0
3.9,6,25,74,0.018,600,52,75,65,1
4.1,3.5,30,90,0.014,400,62,85,75,0
3.8,5.1,28,88,0.011,200,60,95,85,0
3.65,4.4,25,84,0.015,900,57,105,95,1
4.05,3.6,20,89,0.014,700,69,115,65,1
3.85,5.4,33,91,0.017,1000,58,125,75,0
4,5,20,93,0.016,600,65,135,85,1
3.65,5.3,27,90,0.012,300,52,45,35,0
3.95,5.1,29,65,0.015,100,70,55,45,1
3.7,4.5,35,88,0.01,800,50,65,55,0
3.9,6,25,74,0.018,600,52,75,65,1
4.1,3.5,30,90,0.014,400,62,85,75,0
3.8,5.1,28,88,0.011,200,60,95,85,0
3.65,4.4,25,84,0.015,900,57,105,95,1
4.05,3.6,20,89,0.014,700,69,115,65,1
3.85,5.4,33,91,0.017,1000,58,125,75,0
4,5,20,93,0.016,600,65,135,85,1
3.65,5.3,27,90,0.012,300,52,45,35,0
3.95,5.1,29,65,0.015,100,70,55,45,1
3.7,4.5,35,88,0.01,800,50,65,55,0
3.9,6,25,74,0.018,600,52,75,65,1
4.1,3.5,30,90,0.014,400,62,85,75,0
3.8,5.1,28,88,0.011,200,60,95,85,0
3.65,4.4,25,84,0.015,900,57,105,95,1
4.05,3.6,20,89,0.014,700,69,115,65,1
3.85,5.4,33,91,0.017,1000,58,125,75,0
4,5,20,93,0.016,600,65,135,85,1
3.65,5.3,27,90,0.012,300,52,45,35,0
3.95,5.1,29,65,0.015,100,70,55,45,1
3.7,4.5,35,88,0.01,800,50,65,55,0
3.9,6,25,74,0.018,600,52,75,65,1
4.1,3.5,30,90,0.014,400,62,85,75,0
3.8,5.1,28,88,0.011,200,60,95,85,0
3.65,4.4,25,84,0.015,900,57,105,95,1
4.05,3.6,20,89,0.014,700,69,115,65,1
3.85,5.4,33,91,0.017,1000,58,125,75,0
4,5,20,93,0.016,600,65,135,85,1
3.65,5.3,27,90,0.012,300,52,45,35,0
3.95,5.1,29,65,0.015,100,70,55,45,1
3.7,4.5,35,88,0.01,800,50,65,55,0
3.9,6,25,74,0.018,600,52,75,65,1
4.1,3.5,30,90,0.014,400,62,85,75,0
3.8,5.1,28,88,0.011,200,60,95,85,0
3.65,4.4,25,84,0.015,900,57,105,95,1
4.05,3.6,20,89,0.014,700,69,115,65,1
3.85,5.4,33,91,0.017,1000,58,125,75,0
4,5,20,93,0.016,600,65,135,85,1
3.65,5.3,27,90,0.012,300,52,45,35,0
3.95,5.1,29,65,0.015,100,70,55,45,1
3.7,4.5,35,88,0.01,800,50,65,55,0
3.9,6,25,74,0.018,600,52,75,65,1
4.1,3.5,30,90,0.014,400,62,85,75,0
3.8,5.1,28,88,0.011,200,60,95,85,0
3.65,4.4,25,84,0.015,900,57,105,95,1
4.05,3.6,20,89,0.014,700,69,115,65,1
3.85,5.4,33,91,0.017,1000,58,125,75,0
4,5,20,93,0.016,600,65,135,85,1
3.65,5.3,27,90,0.012,300,52,45,35,0
3.95,5.1,29,65,0.015,100,70,55,45,1
3.7,4.5,35,88,0.01,800,50,65,55,0
3.9,6,25,74,0.018,600,52,75,65,1
4.1,3.5,30,90,0.014,400,62,85,75,0
3.8,5.1,28,88,0.011,200,60,95,85,0
3.65,4.4,25,84,0.015,900,57,105,95,1
4.05,3.6,20,89,0.014,700,69,115,65,1
3.85,5.4,33,91,0.017,1000,58,125,75,0
4,5,20,93,0.016,600,65,135,85,1
3.65,5.3,27,90,0.012,300,52,45,35,0
3.95,5.1,29,65,0.015,100,70,55,45,1
3.7,4.5,35,88,0.01,800,50,65,55,0
3.9,6,25,74,0.018,600,52,75,65,1
4.1,3.5,30,90,0.014,400,62,85,75,0
3.8,5.1,28,88,0.011,200,60,95,85,0
3.65,4.4,25,84,0.015,900,57,105,95,1
4.05,3.6,20,89,0.014,700,69,115,65,1
3.85,5.4,33,91,0.017,1000,58,125,75,0
4,5,20,93,0.016,600,65,135,85,1
3.65,5.3,27,90,0.012,300,52,45,35,0
3.95,5.1,29,65,0.015,100,70,55,45,1
3.7,4.5,35,88,0.01,800,50,65,55,0
3.9,6,25,74,0.018,600,52,75,65,1
4.1,3.5,30,90,0.014,400,62,85,75,0
3.8,5.1,28,88,0.011,200,60,95,85,0
3.65,4.4,25,84,0.015,900,57,105,95,1
4.05,3.6,20,89,0.014,700,69,115,65,1
3.85,5.4,33,91,0.017,1000,58,125,75,0
4,5,20,93,0.016,600,65,135,85,1
3.65,5.3,27,90,0.012,300,52,45,35,0
3.95,5.1,29,65,0.015,100,70,55,45,1
3.7,4.5,35,88,0.01,800,50,65,55,0
3.9,6,25,74,0.018,600,52,75,65,1
4.1,3.5,30,90,0.014,400,62,85,75,0
3.8,5.1,28,88,0.011,200,60,95,85,0
3.65,4.4,25,84,0.015,900,57,105,95,1
4.05,3.6,20,89,0.014,700,69,115,65,1
3.85,5.4,33,91,0.017,1000,58,125,75,0
4,5,20,93,0.016,600,65,135,85,1
3.65,5.3,27,90,0.012,300,52,45,35,0
3.95,5.1,29,65,0.015,100,70,55,45,1
3.7,4.5,35,88,0.01,800,50,65,55,0
3.9,6,25,74,0.018,600,52,75,65,1
4.1,3.5,30,90,0.014,400,62,85,75,0
3.8,5.1,28,88,0.011,200,60,95,85,0
3.65,4.4,25,84,0.015,900,57,105,95,1
4.05,3.6,20,89,0.014,700,69,115,65,1
3.85,5.4,33,91,0.017,1000,58,125,75,0
4,5,20,93,0.016,600,65,135,85,1
3.65,5.3,27,90,0.012,300,52,45,35,0
3.95,5.1,29,65,0.015,100,70,55,45,1
3.7,4.5,35,88,0.01,800,50,65,55,0
3.9,6,25,74,0.018,600,52,75,65,1
4.1,3.5,30,90,0.014,400,62,85,75,0
3.75,4.8,31,78,0.013,300,55,90,80,1
4,3.9,34,92,0.016,100,66,100,90,0
3.9,5.2,30,77,0.012,800,53,110,60,0
3.7,4.3,33,80,0.013,600,49,120,70,0
3.95,3.7,28,85,0.011,800,61,130,80,0
3.75,4.6,31,81,0.015,500,54,140,90,0
3.8,4.9,22,70,0.013,200,60,50,40,0
4.05,3.8,34,78,0.011,900,75,60,50,0
3.85,5.3,20,80,0.017,700,58,70,60,1
3.6,4,35,82,0.012,500,48,80,70,0
3.75,4.8,31,78,0.013,300,55,90,80,1
4,3.9,34,92,0.016,100,66,100,90,0
3.9,5.2,30,77,0.012,800,53,110,60,0
3.7,4.3,33,80,0.013,600,49,120,70,0
3.95,3.7,28,85,0.011,800,61,130,80,0
3.75,4.6,31,81,0.015,500,54,140,90,0
3.8,4.9,22,70,0.013,200,60,50,40,0
4.05,3.8,34,78,0.011,900,75,60,50,0
3.85,5.3,20,80,0.017,700,58,70,60,1
3.6,4,35,82,0.012,500,48,80,70,0
3.75,4.8,31,78,0.013,300,55,90,80,1
4,3.9,34,92,0.016,100,66,100,90,0
3.9,5.2,30,77,0.012,800,53,110,60,0
3.7,4.3,33,80,0.013,600,49,120,70,0
3.95,3.7,28,85,0.011,800,61,130,80,0
3.75,4.6,31,81,0.015,500,54,140,90,0
3.8,4.9,22,70,0.013,200,60,50,40,0
4.05,3.8,34,78,0.011,900,75,60,50,0
3.85,5.3,20,80,0.017,700,58,70,60,1
3.6,4,35,82,0.012,500,48,80,70,0
3.75,4.8,31,78,0.013,300,55,90,80,1
4,3.9,34,92,0.016,100,66,100,90,0
3.9,5.2,30,77,0.012,800,53,110,60,0
3.7,4.3,33,80,0.013,600,49,120,70,0
3.95,3.7,28,85,0.011,800,61,130,80,0
3.75,4.6,31,81,0.015,500,54,140,90,0
3.8,4.9,22,70,0.013,200,60,50,40,0
4.05,3.8,34,78,0.011,900,75,60,50,0
3.85,5.3,20,80,0.017,700,58,70,60,1
3.6,4,35,82,0.012,500,48,80,70,0
3.75,4.8,31,78,0.013,300,55,90,80,1
4,3.9,34,92,0.016,100,66,100,90,0
3.9,5.2,30,77,0.012,800,53,110,60,0
3.7,4.3,33,80,0.013,600,49,120,70,0
3.95,3.7,28,85,0.011,800,61,130,80,0
3.75,4.6,31,81,0.015,500,54,140,90,0
3.8,4.9,22,70,0.013,200,60,50,40,0
4.05,3.8,34,78,0.011,900,75,60,50,0
3.85,5.3,20,80,0.017,700,58,70,60,1
3.6,4,35,82,0.012,500,48,80,70,0
3.75,4.8,31,78,0.013,300,55,90,80,1
4,3.9,34,92,0.016,100,66,100,90,0
3.9,5.2,30,77,0.012,800,53,110,60,0
3.7,4.3,33,80,0.013,600,49,120,70,0
3.95,3.7,28,85,0.011,800,61,130,80,0
3.75,4.6,31,81,0.015,500,54,140,90,0
3.8,4.9,22,70,0.013,200,60,50,40,0
4.05,3.8,34,78,0.011,900,75,60,50,0
3.85,5.3,20,80,0.017,700,58,70,60,1
3.6,4,35,82,0.012,500,48,80,70,0
3.75,4.8,31,78,0.013,300,55,90,80,1
4,3.9,34,92,0.016,100,66,100,90,0
3.9,5.2,30,77,0.012,800,53,110,60,0
3.7,4.3,33,80,0.013,600,49,120,70,0
3.95,3.7,28,85,0.011,800,61,130,80,0
3.75,4.6,31,81,0.015,500,54,140,90,0
3.8,4.9,22,70,0.013,200,60,50,40,0
4.05,3.8,34,78,0.011,900,75,60,50,0
3.85,5.3,20,80,0.017,700,58,70,60,1
3.6,4,35,82,0.012,500,48,80,70,0
3.75,4.8,31,78,0.013,300,55,90,80,1
4,3.9,34,92,0.016,100,66,100,90,0
3.9,5.2,30,77,0.012,800,53,110,60,0
3.7,4.3,33,80,0.013,600,49,120,70,0
3.95,3.7,28,85,0.011,800,61,130,80,0
3.75,4.6,31,81,0.015,500,54,140,90,0
3.8,4.9,22,70,0.013,200,60,50,40,0
4.05,3.8,34,78,0.011,900,75,60,50,0
3.85,5.3,20,80,0.017,700,58,70,60,1
3.6,4,35,82,0.012,500,48,80,70,0
3.75,4.8,31,78,0.013,300,55,90,80,1
4,3.9,34,92,0.016,100,66,100,90,0
3.9,5.2,30,77,0.012,800,53,110,60,0
3.7,4.3,33,80,0.013,600,49,120,70,0
3.95,3.7,28,85,0.011,800,61,130,80,0
3.75,4.6,31,81,0.015,500,54,140,90,0
3.8,4.9,22,70,0.013,200,60,50,40,0
4.05,3.8,34,78,0.011,900,75,60,50,0
3.85,5.3,20,80,0.017,700,58,70,60,1
3.6,4,35,82,0.012,500,48,80,70,0
3.75,4.8,31,78,0.013,300,55,90,80,1
4,3.9,34,92,0.016,100,66,100,90,0
3.9,5.2,30,77,0.012,800,53,110,60,0
3.7,4.3,33,80,0.013,600,49,120,70,0
3.95,3.7,28,85,0.011,800,61,130,80,0
3.75,4.6,31,81,0.015,500,54,140,90,0
3.8,4.9,22,70,0.013,200,60,50,40,0
4.05,3.8,34,78,0.011,900,75,60,50,0
3.85,5.3,20,80,0.017,700,58,70,60,1
3.6,4,35,82,0.012,500,48,80,70,0
3.75,4.8,31,78,0.013,300,55,90,80,1
4,3.9,34,92,0.016,100,66,100,90,0
3.9,5.2,30,77,0.012,800,53,110,60,0
3.7,4.3,33,80,0.013,600,49,120,70,0
3.95,3.7,28,85,0.011,800,61,130,80,0
3.75,4.6,31,81,0.015,500,54,140,90,0
3.8,4.9,22,70,0.013,200,60,50,40,0
4.05,3.8,34,78,0.011,900,75,60,50,0
3.85,5.3,20,80,0.017,700,58,70,60,1
3.6,4,35,82,0.012,500,48,80,70,0
3.9,5.1,32,89,0.012,32,0.2,165,0.2,1
4.05,5,28,86,0.014,34,0.7,175,1,0
3.75,5.1,33,87,0.012,36,0.9,185,0.8,0
3.9,5,31,86,0.014,38,0.4,195,0.6,1
3.95,5.1,32,87,0.012,40,0.2,205,0.4,0
3.75,5,29,85,0.014,42,0.7,215,0.2,0
3.7,4.7,30,88,0.012,44,0.5,225,1,1
3.8,5.1,32,89,0.014,46,0.3,235,0.8,0
3.85,5,30,86,0.012,48,0.8,245,0.6,0
3.7,4.9,32,88,0.014,46,0.6,290,0.5,0
4,5.1,28,86,0.012,48,0.4,300,0.3,0
3.9,5.1,33,89,0.014,50,0.2,310,0.1,1
4.05,5,30,88,0.012,52,0.7,320,0.9,0
3.75,5.1,32,86,0.014,54,0.5,330,0.7,0
3.9,5,29,86,0.012,56,0.3,340,0.5,1
3.95,5.1,30,86,0.014,58,0.1,350,0.3,0
3.75,4.7,31,88,0.012,60,0.8,360,0.1,0
3.8,4.8,32,86,0.014,62,0.6,370,0.6,1
3.85,4.9,28,86,0.012,64,0.4,380,0.8,0
4,4.7,30,87,0.013,66,0.2,390,0.5,0
3.7,4.9,29,86,0.011,68,0.8,400,0.3,1
4,5.2,30,89,0.013,70,0.6,410,0.1,0
3.9,5,33,87,0.013,72,0.4,420,0.9,0
4.05,5,29,85,0.015,74,0.2,430,0.7,1
3.75,5.1,28,86,0.013,76,0.8,440,0.5,0
3.9,5,30,88,0.013,78,0.6,450,0.3,0
3.95,5.1,33,89,0.014,80,0.4,460,0.1,1
3.75,4.7,31,85,0.012,82,0.2,470,0.9,0
3.8,4.8,32,89,0.014,84,0.8,480,0.7,0
3.85,4.9,29,87,0.012,86,0.6,490,0.5,1
3.9,5,28,85,0.014,88,0.4,500,0.3,0
4.05,5,30,87,0.012,90,0.2,510,0.1,0
3.75,5.1,32,89,0.014,92,0.7,520,0.9,1
3.9,5,31,85,0.012,94,0.5,530,0.7,0
3.95,5.1,33,87,0.014,96,0.3,540,0.5,0
3.75,4.7,28,86,0.012,98,0.1,550,0.3,1
3.8,4.8,30,88,0.014,100,0.7,560,1,0
3.85,4.9,31,89,0.012,102,0.5,570,0.8,0
3.9,5,33,87,0.014,104,0.3,580,0.6,1
3.75,5.1,29,88,0.012,106,0.1,590,0.4,0
4,5.2,30,86,0.014,108,0.7,600,0.2,0
3.9,5,28,86,0.012,110,0.5,610,1,1
4.05,5,30,88,0.014,112,0.3,620,0.8,0
3.75,5.1,33,89,0.012,114,0.1,630,0.6,0
3.9,5,31,85,0.012,116,0.7,640,0.4,1
3.95,5.1,32,87,0.014,118,0.5,650,0.2,0
3.75,4.7,28,86,0.012,120,0.3,660,1,0
3.8,4.8,30,88,0.014,122,0.1,670,0.8,1
3.85,4.9,31,89,0.012,124,0.7,680,0.6,0
3.9,5,32,87,0.014,126,0.5,690,0.4,0
3.75,5.1,29,88,0.012,128,0.3,700,0.2,1
4,5.2,30,89,0.014,130,0.1,710,1,0
3.9,5,28,86,0.012,132,0.7,720,0.8,0
4.05,5,30,88,0.014,134,0.5,730,0.6,1
3.75,5.1,31,86,0.012,136,0.3,740,0.4,0
3.8,4.8,32,89,0.014,138,0.1,750,0.2,0
3.85,4.9,29,86,0.012,140,0.7,760,1,1
4,4.7,30,87,0.014,142,0.5,770,0.8,0
3.7,4.9,29,86,0.012,144,0.3,780,0.6,0
4,5.2,30,89,0.014,146,0.1,790,0.4,1
3.9,5,33,87,0.013,148,0.7,800,0.2,0
4.05,5,29,86,0.011,150,0.5,810,0.9,0
3.75,5.1,28,86,0.013,152,0.3,820,0.7,1
3.8,4.8,30,85,0.015,154,0.1,830,0.5,0
3.95,5,33,87,0.013,156,0.7,840,0.3,0
3.75,4.7,31,89,0.015,158,0.5,850,0.1,1
3.8,4.8,32,87,0.013,160,0.3,860,0.9,0
3.85,4.9,29,86,0.015,162,0.1,870,0.7,0
3.9,5,28,85,0.013,164,0.7,880,0.5,1
4.05,5,30,87,0.015,166,0.5,890,0.3,0
3.75,5.1,33,89,0.013,168,0.3,900,0.1,0
3.9,5,31,85,0.013,170,0.1,910,0.9,1
3.95,5.1,32,87,0.013,172,0.7,920,0.7,0
3.75,4.7,28,86,0.015,174,0.5,930,0.5,0
3.8,4.8,30,88,0.012,176,0.3,940,0.3,1
3.85,4.9,31,89,0.014,178,0.1,950,0.1,0
3.9,5,32,87,0.014,180,0.7,960,0.9,0
3.75,5.1,29,88,0.012,182,0.5,970,0.7,1
4,5.2,30,86,0.014,184,0.3,980,0.5,0
3.9,5,28,86,0.012,186,0.1,990,0.3,0
4.05,5,30,88,0.014,188,0.7,1000,0.1,1
3.75,5.1,31,86,0.012,190,0.5,1010,0.9,0
3.8,4.8,32,89,0.014,192,0.3,1020,0.7,0
3.85,4.9,29,86,0.012,194,0.1,1030,0.5,1
4,4.7,30,87,0.014,196,0.7,1040,0.3,0
3.7,4.9,29,86,0.012,198,0.5,1050,0.1,0
4,5.2,30,89,0.014,200,0.3,1060,0.9,1
3.9,5,33,87,0.013,202,0.1,1070,0.7,0
4.05,5,29,86,0.011,204,0.7,1080,0.5,0
3.75,5.1,28,86,0.013,206,0.5,1090,0.3,1
3.8,4.8,30,85,0.013,208,0.3,1100,0.1,0
3.95,5,33,87,0.013,210,0.1,1110,0.9,0
3.75,4.7,31,87,0.015,212,0.7,1120,0.7,1
3.8,4.8,32,89,0.013,214,0.5,1130,0.5,0
3.85,4.9,29,86,0.015,216,0.3,1140,0.3,0
3.9,5,28,85,0.013,218,0.1,1150,0.1,1
4.05,5,30,87,0.015,220,0.7,1160,0.9,1
3.75,5.1,33,89,0.013,222,0.5,1170,0.7,0
3.9,5,31,85,0.013,224,0.3,1180,0.5,0
3.95,5.1,32,87,0.013,226,0.1,1190,0.3,1
3.75,4.7,28,86,0.015,228,0.7,1200,0.1,0
3.8,4.8,30,88,0.012,230,0.5,1210,0.9,0
3.85,4.9,31,89,0.014,232,0.3,1220,0.7,1
3.9,5,32,87,0.014,234,0.1,1230,0.5,0
4.05,5,30,88,0.014,236,0.7,1240,0.3,0
3.75,5.1,31,86,0.012,238,0.5,1250,0.1,1
3.8,4.8,32,89,0.014,240,0.3,1260,0.9,0
3.85,4.9,29,86,0.012,242,0.1,1270,0.7,0
4,4.7,30,87,0.014,244,0.7,1280,0.5,1
3.7,4.9,29,86,0.012,246,0.5,1290,0.3,0
4,5.2,30,89,0.014,248,0.3,1300,0.1,0
3.9,5,33,87,0.013,250,0.1,1310,0.9,1
4.05,5,29,86,0.011,252,0.7,1320,0.7,0
3.75,5.1,28,86,0.013,254,0.5,1330,0.5,0
3.8,4.8,30,85,0.013,256,0.3,1340,0.3,1
3.85,4.9,29,86,0.015,258,0.1,1350,1,0
3.9,5,28,85,0.013,260,0.7,1360,0.8,0
4.05,5,30,87,0.015,262,0.5,1370,0.6,1
3.75,5.1,33,89,0.013,264,0.3,1380,0.4,0
3.9,5,31,85,0.013,266,0.1,1390,0.2,0
3.95,5.1,32,87,0.013,268,0.7,1400,1,1
3.75,4.7,28,86,0.015,270,0.5,1410,0.8,0
3.8,4.8,30,88,0.012,272,0.3,1420,0.6,0
3.85,4.9,31,89,0.014,274,0.1,1430,0.4,1
3.9,5,32,87,0.014,276,0.7,1440,0.2,0
4.05,5,30,88,0.014,278,0.5,1450,0.9,0
3.75,5.1,31,86,0.012,280,0.3,1460,0.7,1
3.8,4.8,32,89,0.014,282,0.1,1470,0.5,0
3.85,4.9,29,86,0.012,284,0.7,1480,0.3,0
4,4.7,30,87,0.014,286,0.5,1490,0.1,1
3.7,4.9,29,86,0.012,288,0.3,1500,0.9,0
4,5.2,30,89,0.014,290,0.1,1510,0.7,0
3.9,5,33,87,0.013,292,0.7,1520,0.5,1
4.05,5,29,86,0.011,294,0.5,1530,0.3,0
3.75,5.1,28,86,0.013,296,0.3,1540,0.1,0
3.8,4.8,30,85,0.013,298,0.1,1550,0.9,1
3.85,4.9,29,86,0.015,300,0.7,1560,0.7,0
3.9,5,28,85,0.013,302,0.5,1570,0.5,0
4.05,5,30,87,0.015,304,0.3,1580,0.3,1
3.75,5.1,33,89,0.013,306,0.1,1590,0.1,0
3.9,5,31,85,0.013,308,0.7,1600,0.9,0
3.95,5.1,32,87,0.013,310,0.5,1610,0.7,1
3.75,4.7,28,86,0.015,312,0.3,1620,0.5,0
3.8,4.8,30,88,0.012,314,0.1,1630,0.3,0
3.85,4.9,31,89,0.014,316,0.7,1640,0.1,1
3.9,5,32,87,0.014,318,0.5,1650,0.9,0
4.05,5,30,88,0.014,320,0.3,1660,0.7,0
3.75,5.1,31,86,0.012,322,0.1,1670,0.5,1
3.8,4.8,32,89,0.014,324,0.7,1680,0.3,0
3.85,4.9,29,86,0.012,326,0.5,1690,0.1,0
4,4.7,30,87,0.014,328,0.3,1700,0.9,1
3.7,4.9,29,86,0.012,330,0.1,1710,0.7,0
4,5.2,30,89,0.014,332,0.7,1720,0.5,0
3.9,5,33,87,0.013,334,0.5,1730,0.3,1
4.05,5,29,86,0.011,336,0.3,1740,0.1,0
3.75,5.1,28,86,0.013,338,0.1,1750,0.9,0
3.8,4.8,30,85,0.013,340,0.7,1760,0.7,1
3.85,4.9,29,86,0.015,342,0.5,1770,0.5,0
3.9,5,28,85,0.013,344,0.3,1780,0.3,0
4.05,5,29,87,0.015,346,0.1,1790,1,1
3.75,5.1,28,86,0.013,348,0.7,1800,0.8,0
3.8,4.8,30,85,0.013,350,0.5,1810,0.6,0
3.85,4.9,29,86,0.015,352,0.3,1820,0.4,1
3.9,5,28,85,0.013,354,0.1,1830,0.2,0
4.05,5,30,87,0.015,356,0.7,1840,1,0
3.75,5.1,33,89,0.013,358,0.5,1850,0.8,1
3.9,5,31,85,0.013,360,0.3,1860,0.6,0
3.95,5.1,32,87,0.013,362,0.1,1870,0.4,0
3.75,4.7,28,86,0.015,364,0.7,1880,0.2,1
3.8,4.8,30,88,0.012,366,0.5,1890,1,0
3.85,4.9,31,89,0.014,368,0.3,1900,0.8,0
3.9,5,32,87,0.014,370,0.1,1910,0.6,1
4.05,5,30,88,0.014,372,0.7,1920,0.4,0
3.75,5.1,31,86,0.012,374,0.5,1930,0.2,0
3.8,4.8,32,89,0.014,376,0.3,1940,1,1
3.85,4.9,29,86,0.012,378,0.1,1950,0.8,0
4,4.7,30,87,0.014,380,0.7,1960,0.6,0
3.7,4.9,29,86,0.012,382,0.5,1970,0.4,1
4,5.2,30,89,0.014,384,0.3,1980,0.2,0
3.9,5,33,87,0.013,386,0.1,1990,1,0
4.05,5,29,86,0.011,388,0.7,2000,0.8,1
3.75,5.1,28,86,0.013,390,0.5,2010,0.6,0
3.8,4.8,30,85,0.013,392,0.3,2020,0.4,0
3.85,4.9,29,86,0.015,394,0.1,2030,0.2,1
3.9,5,28,85,0.013,396,0.7,2040,1,0
4.05,5,29,87,0.015,398,0.5,2050,0.8,0
3.75,5.1,33,89,0.013,400,0.3,2060,0.6,1
3.9,5,31,85,0.013,402,0.1,2070,0.4,0
3.95,5.1,32,87,0.013,404,0.7,2080,0.2,0
3.75,4.7,28,86,0.015,406,0.5,2090,1,1
3.8,4.8,30,88,0.012,408,0.3,2100,0.8,0
3.85,4.9,31,89,0.014,410,0.1,2110,0.6,0
3.9,5,32,87,0.014,412,0.7,2120,0.4,1
4.05,5,30,88,0.014,414,0.5,2130,0.2,0
3.75,5.1,31,86,0.012,416,0.3,2140,1,0
3.8,4.8,32,89,0.014,418,0.1,2150,0.8,1
3.85,4.9,29,86,0.012,420,0.7,2160,0.6,0
4,4.7,30,87,0.014,422,0.5,2170,0.4,0
3.7,4.9,29,86,0.012,424,0.3,2180,0.2,1
4,5.2,30,89,0.014,426,0.1,2190,1,0
3.9,5,33,87,0.013,428,0.7,2200,0.8,0
4.05,5,29,86,0.011,430,0.5,2210,0.6,1
3.75,5.1,28,86,0.013,432,0.3,2220,0.4,0
3.8,4.8,30,85,0.013,434,0.1,2230,0.2,0
3.85,4.9,29,86,0.015,436,0.7,2240,1,1
3.9,5,28,85,0.013,438,0.5,2250,0.8,0
4.05,5,29,87,0.015,440,0.3,2260,0.6,0
3.75,5.1,33,89,0.013,442,0.1,2270,0.4,1
3.9,5,31,85,0.013,444,0.7,2280,0.2,0
3.95,5.1,32,87,0.013,446,0.5,2290,1,0
3.75,4.7,28,86,0.015,448,0.3,2300,0.8,1
3.8,4.8,30,88,0.012,450,0.1,2310,0.6,0
3.85,4.9,31,89,0.014,452,0.7,2320,0.4,0
3.9,5,32,87,0.014,454,0.5,2330,0.2,1
4.05,5,30,88,0.014,456,0.3,2340,1,0
3.75,5.1,31,86,0.012,458,0.1,2350,0.8,0
3.8,4.8,32,89,0.014,460,0.7,2360,0.6,1
3.85,4.9,29,86,0.012,462,0.5,2370,0.4,0
4,4.7,30,87,0.014,464,0.3,2380,0.2,0
3.7,4.9,29,86,0.012,466,0.1,2390,1,1
4,5.2,30,89,0.014,468,0.7,2400,0.8,0
3.9,5,33,87,0.013,470,0.5,2410,0.6,0
4.05,5,29,86,0.011,472,0.3,2420,0.4,1
3.75,5.1,28,86,0.013,474,0.1,2430,0.2,0
3.8,4.8,30,85,0.013,476,0.7,2440,1,0
3.85,4.9,29,86,0.015,478,0.5,2450,0.8,1
3.9,5,28,85,0.013,480,0.3,2460,0.6,0
4.05,5,29,87,0.015,482,0.1,2470,0.4,0
3.75,5.1,33,89,0.013,484,0.7,2480,0.2,1
3.9,5,31,85,0.013,486,0.5,2490,1,0
3.95,5.1,32,87,0.013,488,0.3,2500,0.8,0
3.75,4.7,28,86,0.015,490,0.1,2510,0.6,1
3.8,4.8,30,88,0.012,492,0.7,2520,0.4,0
3.85,4.9,31,89,0.014,494,0.5,2530,0.2,0
3.9,5,32,87,0.014,496,0.3,2540,1,1
4.05,5,30,88,0.014,498,0.1,2550,0.8,0
3.75,5.1,31,86,0.012,500,0.7,2560,0.6,0
3.8,4.8,32,89,0.014,502,0.5,2570,0.4,1
3.85,4.9,29,86,0.012,504,0.3,2580,0.2,0
4,4.7,30,87,0.014,506,0.1,2590,1,0
3.7,4.9,29,86,0.012,508,0.7,2600,0.8,1
4,5.2,30,89,0.014,510,0.5,2610,0.6,0
3.9,5,33,87,0.013,512,0.3,2620,0.4,0
4.05,5,29,86,0.011,514,0.1,2630,0.2,1
3.75,5.1,28,86,0.013,516,0.7,2640,1,0
3.8,4.8,30,85,0.013,518,0.5,2650,0.8,0
3.85,4.9,29,86,0.015,520,0.3,2660,0.6,1
3.9,5,28,85,0.013,522,0.1,2670,0.4,0
4.05,5,29,87,0.015,524,0.7,2680,0.2,0
3.75,5.1,33,89,0.013,526,0.5,2690,1,1
3.9,5,31,85,0.013,528,0.3,2700,0.8,0
3.95,5.1,32,87,0.013,530,0.1,2710,0.6,0
3.75,4.7,28,86,0.015,532,0.7,2720,0.4,1
3.8,4.8,30,88,0.012,534,0.5,2730,0.2,0
3.85,4.9,31,89,0.014,536,0.3,2740,1,0
3.9,5,32,87,0.014,538,0.1,2750,0.8,1
4.05,5,30,88,0.014,540,0.7,2760,0.6,0
3.75,5.1,31,86,0.012,542,0.5,2770,0.4,0
3.8,4.8,32,89,0.014,544,0.3,2780,0.2,1
3.85,4.9,29,86,0.012,546,0.1,2790,1,0
4,4.7,30,87,0.014,548,0.7,2800,0.8,0
3.7,4.9,29,86,0.012,550,0.5,2810,0.6,1
4,5.2,30,89,0.014,552,0.3,2820,0.4,0
3.9,5,33,87,0.013,554,0.1,2830,0.2,0
4.05,5,29,86,0.011,556,0.7,2840,1,1
3.75,5.1,28,86,0.013,558,0.5,2850,0.8,0
3.8,4.8,30,85,0.013,560,0.3,2860,0.6,0
3.85,4.9,29,86,0.015,562,0.1,2870,0.4,1
3.9,5,28,85,0.013,564,0.7,2880,0.2,0
4.05,5,29,87,0.015,566,0.5,2890,1,0
3.75,5.1,33,89,0.013,568,0.3,2900,0.8,1
3.9,5,31,85,0.013,570,0.1,2910,0.6,0
3.95,5.1,32,87,0.013,572,0.7,2920,0.4,0
3.75,4.7,28,86,0.015,574,0.5,2930,0.2,1
3.8,4.8,30,88,0.012,576,0.3,2940,1,0
3.85,4.9,31,89,0.014,578,0.1,2950,0.8,0
3.9,5,32,87,0.014,580,0.7,2960,0.6,1
4.05,5,30,88,0.014,582,0.5,2970,0.4,0
3.75,5.1,31,86,0.012,584,0.3,2980,0.2,0
3.8,4.8,32,89,0.014,586,0.1,2990,1,1
3.85,4.9,29,86,0.012,588,0.7,3000,0.8,0
4,4.7,30,87,0.014,590,0.5,3010,0.6,0
3.7,4.9,29,86,0.012,592,0.3,3020,0.4,1
4,5.2,30,89,0.014,594,0.1,3030,0.2,0
3.9,5,33,87,0.013,596,0.7,3040,1,0
4.05,5,29,86,0.011,598,0.5,3050,0.8,1
3.75,5.1,28,86,0.013,600,0.3,3060,0.6,0
3.8,4.8,30,85,0.013,602,0.1,3070,0.4,0
3.85,4.9,29,86,0.015,604,0.7,3080,0.2,1
3.9,5,28,85,0.013,606,0.5,3090,1,0
4.05,5,29,87,0.015,608,0.3,3100,0.8,0